{
  "id": "02d52abb7e0c45959d3a51cdf5c37605",
  "fileName": "PZN_Nr1_VerordnungArzt.xml",
  "pznCodes": [
    "06313728"
  ],
  "primaryPzn": "06313728",
  "issueDate": "2025-10-30T09:30:00Z",
  "uploadedAt": "2025-10-07T14:50:45.468743Z",
  "jsonPayload": {
    "resourceType": "Bundle",
    "id": "281a985c-f25b-4aae-91a6-41ad744080b0",
    "meta": {
      "lastUpdated": "2025-10-30T10:30:00+01:00",
      "profile": [
        "https://fhir.kbv.de/StructureDefinition/KBV_PR_ERP_Bundle|1.3"
      ]
    },
    "identifier": {
      "system": "https://gematik.de/fhir/erp/NamingSystem/GEM_ERP_NS_PrescriptionId",
      "value": "160.000.764.737.300.50"
    },
    "type": "document",
    "timestamp": "2025-10-30T10:30:00+01:00",
    "entry": [
      {
        "fullUrl": "http://pvs.praxis-topp-gluecklich.local/fhir/Composition/ed52c1e3-b700-4497-ae19-b23744e29876",
        "resource": {
          "resourceType": "Composition",
          "id": "ed52c1e3-b700-4497-ae19-b23744e29876",
          "meta": {
            "profile": [
              "https://fhir.kbv.de/StructureDefinition/KBV_PR_ERP_Composition|1.3"
            ]
          },
          "extension": [
            {
              "url": "https://fhir.kbv.de/StructureDefinition/KBV_EX_FOR_Legal_basis",
              "valueCoding": {
                "system": "https://fhir.kbv.de/CodeSystem/KBV_CS_SFHIR_KBV_STATUSKENNZEICHEN",
                "code": "00"
              }
            }
          ],
          "status": "final",
          "type": {
            "coding": [
              {
                "system": "https://fhir.kbv.de/CodeSystem/KBV_CS_SFHIR_KBV_FORMULAR_ART",
                "code": "e16A"
              }
            ]
          },
          "subject": {
            "reference": "Patient/9774f67f-a238-4daf-b4e6-679deeef3811"
          },
          "date": "2025-10-30T09:30:00Z",
          "author": [
            {
              "reference": "Practitioner/20597e0e-cb2a-45b3-95f0-dc3dbdb617c3",
              "type": "Practitioner"
            },
            {
              "type": "Device",
              "identifier": {
                "system": "https://fhir.kbv.de/NamingSystem/KBV_NS_FOR_Pruefnummer",
                "value": "Y/400/1910/36/346"
              }
            }
          ],
          "title": "elektronische Arzneimittelverordnung",
          "custodian": {
            "reference": "Organization/cf042e44-086a-4d51-9c77-172f9a972e3b"
          },
          "section": [
            {
              "code": {
                "coding": [
                  {
                    "system": "https://fhir.kbv.de/CodeSystem/KBV_CS_ERP_Section_Type",
                    "code": "Prescription"
                  }
                ]
              },
              "entry": [
                {
                  "reference": "MedicationRequest/e930cdee-9eb5-4b44-88b5-2a18b69f3b9a"
                }
              ]
            },
            {
              "code": {
                "coding": [
                  {
                    "system": "https://fhir.kbv.de/CodeSystem/KBV_CS_ERP_Section_Type",
                    "code": "Coverage"
                  }
                ]
              },
              "entry": [
                {
                  "reference": "Coverage/1b1ffb6e-eb05-43d7-87eb-e7818fe9661a"
                }
              ]
            }
          ]
        }
      },
      {
        "fullUrl": "http://pvs.praxis-topp-gluecklich.local/fhir/MedicationRequest/e930cdee-9eb5-4b44-88b5-2a18b69f3b9a",
        "resource": {
          "resourceType": "MedicationRequest",
          "id": "e930cdee-9eb5-4b44-88b5-2a18b69f3b9a",
          "meta": {
            "profile": [
              "https://fhir.kbv.de/StructureDefinition/KBV_PR_ERP_Prescription|1.3"
            ]
          },
          "extension": [
            {
              "url": "https://fhir.kbv.de/StructureDefinition/KBV_EX_FOR_StatusCoPayment",
              "valueCoding": {
                "system": "https://fhir.kbv.de/CodeSystem/KBV_CS_FOR_StatusCoPayment",
                "code": "0"
              }
            },
            {
              "url": "https://fhir.kbv.de/StructureDefinition/KBV_EX_ERP_EmergencyServicesFee",
              "valueBoolean": false
            },
            {
              "url": "https://fhir.kbv.de/StructureDefinition/KBV_EX_FOR_SER",
              "valueBoolean": false
            },
            {
              "extension": [
                {
                  "url": "Kennzeichen",
                  "valueBoolean": false
                }
              ],
              "url": "https://fhir.kbv.de/StructureDefinition/KBV_EX_ERP_Multiple_Prescription"
            }
          ],
          "status": "active",
          "intent": "order",
          "medicationReference": {
            "reference": "Medication/5fe6e06c-8725-46d5-aecd-e65e041ca3de"
          },
          "subject": {
            "reference": "Patient/9774f67f-a238-4daf-b4e6-679deeef3811"
          },
          "authoredOn": "2025-10-30",
          "requester": {
            "reference": "Practitioner/20597e0e-cb2a-45b3-95f0-dc3dbdb617c3"
          },
          "insurance": [
            {
              "reference": "Coverage/1b1ffb6e-eb05-43d7-87eb-e7818fe9661a"
            }
          ],
          "dosageInstruction": [
            {
              "extension": [
                {
                  "url": "https://fhir.kbv.de/StructureDefinition/KBV_EX_ERP_DosageFlag",
                  "valueBoolean": true
                }
              ],
              "text": "1-0-1-0"
            }
          ],
          "dispenseRequest": {
            "quantity": {
              "value": 1,
              "unit": "Packung"
            }
          },
          "substitution": {
            "allowedBoolean": true
          }
        }
      },
      {
        "fullUrl": "http://pvs.praxis-topp-gluecklich.local/fhir/Medication/5fe6e06c-8725-46d5-aecd-e65e041ca3de",
        "resource": {
          "resourceType": "Medication",
          "id": "5fe6e06c-8725-46d5-aecd-e65e041ca3de",
          "meta": {
            "profile": [
              "https://fhir.kbv.de/StructureDefinition/KBV_PR_ERP_Medication_PZN|1.3"
            ]
          },
          "extension": [
            {
              "url": "https://fhir.kbv.de/StructureDefinition/KBV_EX_ERP_Medication_Category",
              "valueCoding": {
                "system": "https://fhir.kbv.de/CodeSystem/KBV_CS_ERP_Medication_Category",
                "code": "00"
              }
            },
            {
              "url": "https://fhir.kbv.de/StructureDefinition/KBV_EX_Base_Medication_Type",
              "valueCodeableConcept": {
                "coding": [
                  {
                    "system": "http://snomed.info/sct",
                    "version": "http://snomed.info/sct/11000274103/version/20240515",
                    "code": "763158003",
                    "display": "Medicinal product (product)"
                  }
                ]
              }
            },
            {
              "url": "https://fhir.kbv.de/StructureDefinition/KBV_EX_ERP_Medication_Vaccine",
              "valueBoolean": false
            },
            {
              "url": "http://fhir.de/StructureDefinition/normgroesse",
              "valueCode": "N3"
            }
          ],
          "code": {
            "coding": [
              {
                "system": "http://fhir.de/CodeSystem/ifa/pzn",
                "code": "06313728"
              }
            ],
            "text": "Sumatriptan-1a Pharma 100 mg Tabletten"
          },
          "form": {
            "coding": [
              {
                "system": "https://fhir.kbv.de/CodeSystem/KBV_CS_SFHIR_KBV_DARREICHUNGSFORM",
                "code": "TAB"
              }
            ]
          },
          "amount": {
            "numerator": {
              "extension": [
                {
                  "url": "https://fhir.kbv.de/StructureDefinition/KBV_EX_ERP_Medication_PackagingSize",
                  "valueString": "12"
                }
              ],
              "unit": "TAB"
            },
            "denominator": {
              "value": 1
            }
          },
          "ingredient": [
            {
              "itemCodeableConcept": {
                "coding": [
                  {
                    "system": "http://fhir.de/CodeSystem/ask",
                    "code": "24064"
                  }
                ],
                "text": "Sumatriptan"
              },
              "strength": {
                "numerator": {
                  "value": 100,
                  "unit": "mg"
                },
                "denominator": {
                  "value": 1,
                  "unit": "Tbl."
                }
              }
            }
          ]
        }
      },
      {
        "fullUrl": "http://pvs.praxis-topp-gluecklich.local/fhir/Patient/9774f67f-a238-4daf-b4e6-679deeef3811",
        "resource": {
          "resourceType": "Patient",
          "id": "9774f67f-a238-4daf-b4e6-679deeef3811",
          "meta": {
            "profile": [
              "https://fhir.kbv.de/StructureDefinition/KBV_PR_FOR_Patient|1.2"
            ]
          },
          "identifier": [
            {
              "type": {
                "coding": [
                  {
                    "system": "http://fhir.de/CodeSystem/identifier-type-de-basis",
                    "code": "KVZ10"
                  }
                ]
              },
              "system": "http://fhir.de/sid/gkv/kvid-10",
              "value": "X234567891"
            }
          ],
          "name": [
            {
              "use": "official",
              "family": "Königsstein",
              "_family": {
                "extension": [
                  {
                    "url": "http://hl7.org/fhir/StructureDefinition/humanname-own-name",
                    "valueString": "Königsstein"
                  }
                ]
              },
              "given": [
                "Ludger"
              ]
            }
          ],
          "birthDate": "1935-06-22",
          "address": [
            {
              "type": "both",
              "line": [
                "Musterstr. 1"
              ],
              "_line": [
                {
                  "extension": [
                    {
                      "url": "http://hl7.org/fhir/StructureDefinition/iso21090-ADXP-houseNumber",
                      "valueString": "1"
                    },
                    {
                      "url": "http://hl7.org/fhir/StructureDefinition/iso21090-ADXP-streetName",
                      "valueString": "Musterstr."
                    }
                  ]
                }
              ],
              "city": "Berlin",
              "postalCode": "10623"
            }
          ]
        }
      },
      {
        "fullUrl": "http://pvs.praxis-topp-gluecklich.local/fhir/Practitioner/20597e0e-cb2a-45b3-95f0-dc3dbdb617c3",
        "resource": {
          "resourceType": "Practitioner",
          "id": "20597e0e-cb2a-45b3-95f0-dc3dbdb617c3",
          "meta": {
            "profile": [
              "https://fhir.kbv.de/StructureDefinition/KBV_PR_FOR_Practitioner|1.2"
            ]
          },
          "identifier": [
            {
              "type": {
                "coding": [
                  {
                    "system": "http://terminology.hl7.org/CodeSystem/v2-0203",
                    "code": "LANR"
                  }
                ]
              },
              "system": "https://fhir.kbv.de/NamingSystem/KBV_NS_Base_ANR",
              "value": "838382202"
            }
          ],
          "name": [
            {
              "use": "official",
              "family": "Topp-Glücklich",
              "_family": {
                "extension": [
                  {
                    "url": "http://hl7.org/fhir/StructureDefinition/humanname-own-name",
                    "valueString": "Topp-Glücklich"
                  }
                ]
              },
              "given": [
                "Hans"
              ],
              "prefix": [
                "Dr. med."
              ],
              "_prefix": [
                {
                  "extension": [
                    {
                      "url": "http://hl7.org/fhir/StructureDefinition/iso21090-EN-qualifier",
                      "valueCode": "AC"
                    }
                  ]
                }
              ]
            }
          ],
          "qualification": [
            {
              "code": {
                "coding": [
                  {
                    "system": "https://fhir.kbv.de/CodeSystem/KBV_CS_FOR_Qualification_Type",
                    "code": "00"
                  }
                ]
              }
            },
            {
              "code": {
                "coding": [
                  {
                    "system": "https://fhir.kbv.de/CodeSystem/KBV_CS_FOR_Berufsbezeichnung",
                    "code": "Berufsbezeichnung"
                  }
                ],
                "text": "Hausarzt"
              }
            }
          ]
        }
      },
      {
        "fullUrl": "http://pvs.praxis-topp-gluecklich.local/fhir/Organization/cf042e44-086a-4d51-9c77-172f9a972e3b",
        "resource": {
          "resourceType": "Organization",
          "id": "cf042e44-086a-4d51-9c77-172f9a972e3b",
          "meta": {
            "profile": [
              "https://fhir.kbv.de/StructureDefinition/KBV_PR_FOR_Organization|1.2"
            ]
          },
          "identifier": [
            {
              "type": {
                "coding": [
                  {
                    "system": "http://terminology.hl7.org/CodeSystem/v2-0203",
                    "code": "BSNR"
                  }
                ]
              },
              "system": "https://fhir.kbv.de/NamingSystem/KBV_NS_Base_BSNR",
              "value": "031234567"
            }
          ],
          "name": "Hausarztpraxis Dr. Topp-Glücklich",
          "telecom": [
            {
              "system": "phone",
              "value": "0301234567"
            }
          ],
          "address": [
            {
              "type": "both",
              "line": [
                "Musterstr. 2"
              ],
              "_line": [
                {
                  "extension": [
                    {
                      "url": "http://hl7.org/fhir/StructureDefinition/iso21090-ADXP-houseNumber",
                      "valueString": "2"
                    },
                    {
                      "url": "http://hl7.org/fhir/StructureDefinition/iso21090-ADXP-streetName",
                      "valueString": "Musterstr."
                    }
                  ]
                }
              ],
              "city": "Berlin",
              "postalCode": "10623"
            }
          ]
        }
      },
      {
        "fullUrl": "http://pvs.praxis-topp-gluecklich.local/fhir/Coverage/1b1ffb6e-eb05-43d7-87eb-e7818fe9661a",
        "resource": {
          "resourceType": "Coverage",
          "id": "1b1ffb6e-eb05-43d7-87eb-e7818fe9661a",
          "meta": {
            "profile": [
              "https://fhir.kbv.de/StructureDefinition/KBV_PR_FOR_Coverage|1.2"
            ]
          },
          "extension": [
            {
              "url": "http://fhir.de/StructureDefinition/gkv/besondere-personengruppe",
              "valueCoding": {
                "system": "https://fhir.kbv.de/CodeSystem/KBV_CS_SFHIR_KBV_PERSONENGRUPPE",
                "code": "00"
              }
            },
            {
              "url": "http://fhir.de/StructureDefinition/gkv/dmp-kennzeichen",
              "valueCoding": {
                "system": "https://fhir.kbv.de/CodeSystem/KBV_CS_SFHIR_KBV_DMP",
                "code": "00"
              }
            },
            {
              "url": "http://fhir.de/StructureDefinition/gkv/wop",
              "valueCoding": {
                "system": "https://fhir.kbv.de/CodeSystem/KBV_CS_SFHIR_ITA_WOP",
                "code": "03"
              }
            },
            {
              "url": "http://fhir.de/StructureDefinition/gkv/versichertenart",
              "valueCoding": {
                "system": "https://fhir.kbv.de/CodeSystem/KBV_CS_SFHIR_KBV_VERSICHERTENSTATUS",
                "code": "1"
              }
            }
          ],
          "status": "active",
          "type": {
            "coding": [
              {
                "system": "http://fhir.de/CodeSystem/versicherungsart-de-basis",
                "code": "GKV"
              }
            ]
          },
          "beneficiary": {
            "reference": "Patient/9774f67f-a238-4daf-b4e6-679deeef3811"
          },
          "payor": [
            {
              "identifier": {
                "system": "http://fhir.de/sid/arge-ik/iknr",
                "value": "104212059"
              },
              "display": "AOK Rheinland/Hamburg"
            }
          ]
        }
      }
    ]
  },
  "rawXml": "<Bundle xmlns=\"http://hl7.org/fhir\">\n  <id value=\"281a985c-f25b-4aae-91a6-41ad744080b0\"/>\n  <meta>\n    <lastUpdated value=\"2025-10-30T09:30:00Z\"/>\n    <profile value=\"https://fhir.kbv.de/StructureDefinition/KBV_PR_ERP_Bundle|1.3\"/>\n  </meta>\n  <identifier>\n    <system value=\"https://gematik.de/fhir/erp/NamingSystem/GEM_ERP_NS_PrescriptionId\"/>\n    <value value=\"160.000.764.737.300.50\"/>\n  </identifier>\n  <type value=\"document\"/>\n  <timestamp value=\"2025-10-30T09:30:00Z\"/>\n  <entry>\n    <fullUrl value=\"http://pvs.praxis-topp-gluecklich.local/fhir/Composition/ed52c1e3-b700-4497-ae19-b23744e29876\"/>\n    <resource>\n      <Composition>\n        <id value=\"ed52c1e3-b700-4497-ae19-b23744e29876\"/>\n        <meta>\n          <profile value=\"https://fhir.kbv.de/StructureDefinition/KBV_PR_ERP_Composition|1.3\"/>\n        </meta>\n        <extension url=\"https://fhir.kbv.de/StructureDefinition/KBV_EX_FOR_Legal_basis\">\n          <valueCoding>\n            <system value=\"https://fhir.kbv.de/CodeSystem/KBV_CS_SFHIR_KBV_STATUSKENNZEICHEN\"/>\n            <code value=\"00\"/>\n          </valueCoding>\n        </extension>\n        <status value=\"final\"/>\n        <type>\n          <coding>\n            <system value=\"https://fhir.kbv.de/CodeSystem/KBV_CS_SFHIR_KBV_FORMULAR_ART\"/>\n            <code value=\"e16A\"/>\n          </coding>\n        </type>\n        <subject>\n          <reference value=\"Patient/9774f67f-a238-4daf-b4e6-679deeef3811\"/>\n        </subject>\n        <date value=\"2025-10-30T09:30:00Z\"/>\n        <author>\n          <reference value=\"Practitioner/20597e0e-cb2a-45b3-95f0-dc3dbdb617c3\"/>\n          <type value=\"Practitioner\"/>\n        </author>\n        <author>\n          <type value=\"Device\"/>\n          <identifier>\n            <system value=\"https://fhir.kbv.de/NamingSystem/KBV_NS_FOR_Pruefnummer\"/>\n            <value value=\"Y/400/1910/36/346\"/>\n          </identifier>\n        </author>\n        <title value=\"elektronische Arzneimittelverordnung\"/>\n        <custodian>\n          <reference value=\"Organization/cf042e44-086a-4d51-9c77-172f9a972e3b\"/>\n        </custodian>\n        <section>\n          <code>\n            <coding>\n              <system value=\"https://fhir.kbv.de/CodeSystem/KBV_CS_ERP_Section_Type\"/>\n              <code value=\"Prescription\"/>\n            </coding>\n          </code>\n          <entry>\n            <reference value=\"MedicationRequest/e930cdee-9eb5-4b44-88b5-2a18b69f3b9a\"/>\n          </entry>\n        </section>\n        <section>\n          <code>\n            <coding>\n              <system value=\"https://fhir.kbv.de/CodeSystem/KBV_CS_ERP_Section_Type\"/>\n              <code value=\"Coverage\"/>\n            </coding>\n          </code>\n          <entry>\n            <reference value=\"Coverage/1b1ffb6e-eb05-43d7-87eb-e7818fe9661a\"/>\n          </entry>\n        </section>\n      </Composition>\n    </resource>\n  </entry>\n  <entry>\n    <fullUrl value=\"http://pvs.praxis-topp-gluecklich.local/fhir/MedicationRequest/e930cdee-9eb5-4b44-88b5-2a18b69f3b9a\"/>\n    <resource>\n      <MedicationRequest>\n        <id value=\"e930cdee-9eb5-4b44-88b5-2a18b69f3b9a\"/>\n        <meta>\n          <profile value=\"https://fhir.kbv.de/StructureDefinition/KBV_PR_ERP_Prescription|1.3\"/>\n        </meta>\n        <extension url=\"https://fhir.kbv.de/StructureDefinition/KBV_EX_FOR_StatusCoPayment\">\n          <valueCoding>\n            <system value=\"https://fhir.kbv.de/CodeSystem/KBV_CS_FOR_StatusCoPayment\"/>\n            <code value=\"0\"/>\n          </valueCoding>\n        </extension>\n        <extension url=\"https://fhir.kbv.de/StructureDefinition/KBV_EX_ERP_EmergencyServicesFee\">\n          <valueBoolean value=\"false\"/>\n        </extension>\n        <extension url=\"https://fhir.kbv.de/StructureDefinition/KBV_EX_FOR_SER\">\n          <valueBoolean value=\"false\"/>\n        </extension>\n        <extension url=\"https://fhir.kbv.de/StructureDefinition/KBV_EX_ERP_Multiple_Prescription\">\n          <extension url=\"Kennzeichen\">\n            <valueBoolean value=\"false\"/>\n          </extension>\n        </extension>\n        <status value=\"active\"/>\n        <intent value=\"order\"/>\n        <medicationReference>\n          <reference value=\"Medication/5fe6e06c-8725-46d5-aecd-e65e041ca3de\"/>\n        </medicationReference>\n        <subject>\n          <reference value=\"Patient/9774f67f-a238-4daf-b4e6-679deeef3811\"/>\n        </subject>\n        <authoredOn value=\"2025-10-30\"/>\n        <requester>\n          <reference value=\"Practitioner/20597e0e-cb2a-45b3-95f0-dc3dbdb617c3\"/>\n        </requester>\n        <insurance>\n          <reference value=\"Coverage/1b1ffb6e-eb05-43d7-87eb-e7818fe9661a\"/>\n        </insurance>\n        <dosageInstruction>\n          <extension url=\"https://fhir.kbv.de/StructureDefinition/KBV_EX_ERP_DosageFlag\">\n            <valueBoolean value=\"true\"/>\n          </extension>\n          <text value=\"1-0-1-0\"/>\n        </dosageInstruction>\n        <dispenseRequest>\n          <quantity>\n            <value value=\"1\"/>\n            <unit value=\"Packung\"/>\n          </quantity>\n        </dispenseRequest>\n        <substitution>\n          <allowedBoolean value=\"true\"/>\n        </substitution>\n      </MedicationRequest>\n    </resource>\n  </entry>\n  <entry>\n    <fullUrl value=\"http://pvs.praxis-topp-gluecklich.local/fhir/Medication/5fe6e06c-8725-46d5-aecd-e65e041ca3de\"/>\n    <resource>\n      <Medication>\n        <id value=\"5fe6e06c-8725-46d5-aecd-e65e041ca3de\"/>\n        <meta>\n          <profile value=\"https://fhir.kbv.de/StructureDefinition/KBV_PR_ERP_Medication_PZN|1.3\"/>\n        </meta>\n        <extension url=\"https://fhir.kbv.de/StructureDefinition/KBV_EX_ERP_Medication_Category\">\n          <valueCoding>\n            <system value=\"https://fhir.kbv.de/CodeSystem/KBV_CS_ERP_Medication_Category\"/>\n            <code value=\"00\"/>\n          </valueCoding>\n        </extension>\n        <extension url=\"https://fhir.kbv.de/StructureDefinition/KBV_EX_Base_Medication_Type\">\n          <valueCodeableConcept>\n           <coding>\n            <system value=\"http://snomed.info/sct\"/>\n            <version value=\"http://snomed.info/sct/11000274103/version/20240515\"/>\n            <code value=\"763158003\"/>\n            <display value=\"Medicinal product (product)\"/>\n           </coding>\n          </valueCodeableConcept>\n        </extension>\n        <extension url=\"https://fhir.kbv.de/StructureDefinition/KBV_EX_ERP_Medication_Vaccine\">\n          <valueBoolean value=\"false\"/>\n        </extension>\n        <extension url=\"http://fhir.de/StructureDefinition/normgroesse\">\n          <valueCode value=\"N3\"/>\n        </extension>\n        <code>\n          <coding>\n            <system value=\"http://fhir.de/CodeSystem/ifa/pzn\"/>\n            <code value=\"06313728\"/>\n          </coding>\n          <text value=\"Sumatriptan-1a Pharma 100 mg Tabletten\"/>\n        </code>\n        <form>\n          <coding>\n            <system value=\"https://fhir.kbv.de/CodeSystem/KBV_CS_SFHIR_KBV_DARREICHUNGSFORM\"/>\n            <code value=\"TAB\"/>\n          </coding>\n        </form>\n        <amount>\n          <numerator>\n            <extension url=\"https://fhir.kbv.de/StructureDefinition/KBV_EX_ERP_Medication_PackagingSize\">\n              <valueString value=\"12\"/>\n            </extension>\n            <unit value=\"TAB\"/>\n          </numerator>\n          <denominator>\n            <value value=\"1\"/>\n          </denominator>\n        </amount>\n        <ingredient>\n          <itemCodeableConcept>\n            <coding>\n              <system value=\"http://fhir.de/CodeSystem/ask\"/>\n              <code value=\"24064\"/>\n            </coding>\n            <text value=\"Sumatriptan\"/>\n          </itemCodeableConcept>\n          <strength>\n            <numerator>\n              <value value=\"100\"/>\n              <unit value=\"mg\"/>\n            </numerator>\n            <denominator>\n              <value value=\"1\"/>\n              <unit value=\"Tbl.\"/>\n            </denominator>\n          </strength>\n        </ingredient>\n      </Medication>\n    </resource>\n  </entry>\n  <entry>\n    <fullUrl value=\"http://pvs.praxis-topp-gluecklich.local/fhir/Patient/9774f67f-a238-4daf-b4e6-679deeef3811\"/>\n    <resource>\n      <Patient>\n        <id value=\"9774f67f-a238-4daf-b4e6-679deeef3811\"/>\n        <meta>\n          <profile value=\"https://fhir.kbv.de/StructureDefinition/KBV_PR_FOR_Patient|1.2\"/>\n        </meta>\n        <identifier>\n          <type>\n            <coding>\n              <system value=\"http://fhir.de/CodeSystem/identifier-type-de-basis\"/>\n              <code value=\"KVZ10\"/>\n            </coding>\n          </type>\n          <system value=\"http://fhir.de/sid/gkv/kvid-10\"/>\n          <value value=\"X234567891\"/>\n        </identifier>\n        <name>\n          <use value=\"official\"/>\n          <family value=\"Königsstein\">\n            <extension url=\"http://hl7.org/fhir/StructureDefinition/humanname-own-name\">\n              <valueString value=\"Königsstein\"/>\n            </extension>\n          </family>\n          <given value=\"Ludger\"/>\n        </name>\n        <birthDate value=\"1935-06-22\"/>\n        <address>\n          <type value=\"both\"/>\n          <line value=\"Musterstr. 1\">\n            <extension url=\"http://hl7.org/fhir/StructureDefinition/iso21090-ADXP-houseNumber\">\n              <valueString value=\"1\"/>\n            </extension>\n            <extension url=\"http://hl7.org/fhir/StructureDefinition/iso21090-ADXP-streetName\">\n              <valueString value=\"Musterstr.\"/>\n            </extension>\n          </line>\n          <city value=\"Berlin\"/>\n          <postalCode value=\"10623\"/>\n        </address>\n      </Patient>\n    </resource>\n  </entry>\n  <entry>\n    <fullUrl value=\"http://pvs.praxis-topp-gluecklich.local/fhir/Practitioner/20597e0e-cb2a-45b3-95f0-dc3dbdb617c3\"/>\n    <resource>\n      <Practitioner>\n        <id value=\"20597e0e-cb2a-45b3-95f0-dc3dbdb617c3\"/>\n        <meta>\n          <profile value=\"https://fhir.kbv.de/StructureDefinition/KBV_PR_FOR_Practitioner|1.2\"/>\n        </meta>\n        <identifier>\n          <type>\n            <coding>\n              <system value=\"http://terminology.hl7.org/CodeSystem/v2-0203\"/>\n              <code value=\"LANR\"/>\n            </coding>\n          </type>\n          <system value=\"https://fhir.kbv.de/NamingSystem/KBV_NS_Base_ANR\"/>\n          <value value=\"838382202\"/>\n        </identifier>\n        <name>\n          <use value=\"official\"/>\n          <family value=\"Topp-Glücklich\">\n            <extension url=\"http://hl7.org/fhir/StructureDefinition/humanname-own-name\">\n              <valueString value=\"Topp-Glücklich\"/>\n            </extension>\n          </family>\n          <given value=\"Hans\"/>\n          <prefix value=\"Dr. med.\">\n            <extension url=\"http://hl7.org/fhir/StructureDefinition/iso21090-EN-qualifier\">\n              <valueCode value=\"AC\"/>\n            </extension>\n          </prefix>\n        </name>\n        <qualification>\n          <code>\n            <coding>\n              <system value=\"https://fhir.kbv.de/CodeSystem/KBV_CS_FOR_Qualification_Type\"/>\n              <code value=\"00\"/>\n            </coding>\n          </code>\n        </qualification>\n        <qualification>\n          <code>\n            <coding>\n              <system value=\"https://fhir.kbv.de/CodeSystem/KBV_CS_FOR_Berufsbezeichnung\"/>\n              <code value=\"Berufsbezeichnung\"/>\n            </coding>\n            <text value=\"Hausarzt\"/>\n          </code>\n        </qualification>\n      </Practitioner>\n    </resource>\n  </entry>\n  <entry>\n    <fullUrl value=\"http://pvs.praxis-topp-gluecklich.local/fhir/Organization/cf042e44-086a-4d51-9c77-172f9a972e3b\"/>\n    <resource>\n      <Organization>\n        <id value=\"cf042e44-086a-4d51-9c77-172f9a972e3b\"/>\n        <meta>\n          <profile value=\"https://fhir.kbv.de/StructureDefinition/KBV_PR_FOR_Organization|1.2\"/>\n        </meta>\n        <identifier>\n          <type>\n            <coding>\n              <system value=\"http://terminology.hl7.org/CodeSystem/v2-0203\"/>\n              <code value=\"BSNR\"/>\n            </coding>\n          </type>\n          <system value=\"https://fhir.kbv.de/NamingSystem/KBV_NS_Base_BSNR\"/>\n          <value value=\"031234567\"/>\n        </identifier>\n        <name value=\"Hausarztpraxis Dr. Topp-Glücklich\"/>\n        <telecom>\n          <system value=\"phone\"/>\n          <value value=\"0301234567\"/>\n        </telecom>\n        <address>\n          <type value=\"both\"/>\n          <line value=\"Musterstr. 2\">\n            <extension url=\"http://hl7.org/fhir/StructureDefinition/iso21090-ADXP-houseNumber\">\n              <valueString value=\"2\"/>\n            </extension>\n            <extension url=\"http://hl7.org/fhir/StructureDefinition/iso21090-ADXP-streetName\">\n              <valueString value=\"Musterstr.\"/>\n            </extension>\n          </line>\n          <city value=\"Berlin\"/>\n          <postalCode value=\"10623\"/>\n        </address>\n      </Organization>\n    </resource>\n  </entry>\n  <entry>\n    <fullUrl value=\"http://pvs.praxis-topp-gluecklich.local/fhir/Coverage/1b1ffb6e-eb05-43d7-87eb-e7818fe9661a\"/>\n    <resource>\n      <Coverage>\n        <id value=\"1b1ffb6e-eb05-43d7-87eb-e7818fe9661a\"/>\n        <meta>\n          <profile value=\"https://fhir.kbv.de/StructureDefinition/KBV_PR_FOR_Coverage|1.2\"/>\n        </meta>\n        <extension url=\"http://fhir.de/StructureDefinition/gkv/besondere-personengruppe\">\n          <valueCoding>\n            <system value=\"https://fhir.kbv.de/CodeSystem/KBV_CS_SFHIR_KBV_PERSONENGRUPPE\"/>\n            <code value=\"00\"/>\n          </valueCoding>\n        </extension>\n        <extension url=\"http://fhir.de/StructureDefinition/gkv/dmp-kennzeichen\">\n          <valueCoding>\n            <system value=\"https://fhir.kbv.de/CodeSystem/KBV_CS_SFHIR_KBV_DMP\"/>\n            <code value=\"00\"/>\n          </valueCoding>\n        </extension>\n        <extension url=\"http://fhir.de/StructureDefinition/gkv/wop\">\n          <valueCoding>\n            <system value=\"https://fhir.kbv.de/CodeSystem/KBV_CS_SFHIR_ITA_WOP\"/>\n            <code value=\"03\"/>\n          </valueCoding>\n        </extension>\n        <extension url=\"http://fhir.de/StructureDefinition/gkv/versichertenart\">\n          <valueCoding>\n            <system value=\"https://fhir.kbv.de/CodeSystem/KBV_CS_SFHIR_KBV_VERSICHERTENSTATUS\"/>\n            <code value=\"1\"/>\n          </valueCoding>\n        </extension>\n        <status value=\"active\"/>\n        <type>\n          <coding>\n            <system value=\"http://fhir.de/CodeSystem/versicherungsart-de-basis\"/>\n            <code value=\"GKV\"/>\n          </coding>\n        </type>\n        <beneficiary>\n          <reference value=\"Patient/9774f67f-a238-4daf-b4e6-679deeef3811\"/>\n        </beneficiary>\n        <payor>\n          <identifier>\n            <system value=\"http://fhir.de/sid/arge-ik/iknr\"/>\n            <value value=\"104212059\"/>\n          </identifier>\n          <display value=\"AOK Rheinland/Hamburg\"/>\n        </payor>\n      </Coverage>\n    </resource>\n  </entry>\n</Bundle>"
}